#      T [K]      F [kJ/mol]    S [J/K/mol]  C_v [J/K/mol]     E [kJ/mol]
       0.000      11.9102019      0.0000000      0.0000000     11.9102019
      10.000      11.9101968      0.0027929      0.0107355     11.9102247
      20.000      11.9100464      0.0384342      0.1608801     11.9108150
      30.000      11.9089469      0.2196718      0.9233682     11.9155371
      40.000      11.9047024      0.6809124      2.4630650     11.9319389
      50.000      11.8943355      1.4376981      4.4333432     11.9662204
      60.000      11.8751617      2.4305328      6.5267627     12.0209937
      70.000      11.8451582      3.5940132      8.6185371     12.0967392
      80.000      11.8028746      4.8801184     10.6869372     12.1932841
      90.000      11.7472530      6.2574224     12.7380129     12.3104210
     100.000      11.6774925      7.7049939     14.7729671     12.4479919
     110.000      11.5929703      9.2074988     16.7821294     12.6057952
     120.000      11.4932013     10.7524335     18.7488824     12.7834933
     130.000      11.3778167     12.3288736     20.6549590     12.9805703
     140.000      11.2465515     13.9270305     22.4841692     13.1963358
     150.000      11.0992330     15.5381533     24.2242265     13.4299560
     160.000      10.9357710     17.1545322     25.8671843     13.6804962
     170.000      10.7561472     18.7695016     27.4090787     13.9469625
     180.000      10.5604047     20.3774093     28.8492214     14.2283383
     190.000      10.3486383     21.9735538     30.1894133     14.5236135
     200.000      10.1209857     23.5540976     31.4332195     14.8318052
     210.000       9.8776187     25.1159696     32.5853631     15.1519723
     220.000       9.6187366     26.6567649     33.6512483     15.4832249
     230.000       9.3445598     28.1746479     34.6366041     15.8247288
     240.000       9.0553246     29.6682637     35.5472281     16.1757079
     250.000       8.7512786     31.1366586     36.3888096     16.5354433
     260.000       8.4326776     32.5792100     37.1668138     16.9032722
     270.000       8.0997818     33.9955671     37.8864105     17.2785849
     280.000       7.7528540     35.3855995     38.5524358     17.6608219
     290.000       7.3921574     36.7493539     39.1693761     18.0494700
     300.000       7.0179539     38.0870189     39.7413674     18.4440596
     310.000       6.6305030     39.3988944     40.2722058     18.8441602
     320.000       6.2300607     40.6853670     40.7653632     19.2493781
     330.000       5.8168788     41.9468899     41.2240073     19.6593525
     340.000       5.3912044     43.1839661     41.6510235     20.0737529
     350.000       4.9532792     44.3971346     42.0490366     20.4922763
     360.000       4.5033395     45.5869594     42.4204333     20.9146449
     370.000       4.0416159     46.7540206     42.7673826     21.3406035
     380.000       3.5683330     47.8989070     43.0918558     21.7699177
     390.000       3.0837097     49.0222103     43.3956451     22.2023717
     400.000       2.5879588     50.1245207     43.6803801     22.6377671
     410.000       2.0812873     51.2064230     43.9475434     23.0759207
     420.000       1.5638964     52.2684939     44.1984853     23.5166639
     430.000       1.0359816     53.3112996     44.4344357     23.9598405
     440.000       0.4977328     54.3353945     44.6565167     24.4053064
     450.000      -0.0506657     55.3413193     44.8657520     24.8529280
     460.000      -0.6090348     56.3296011     45.0630773     25.3025817
     470.000      -1.1772006     57.3007517     45.2493480     25.7541527
     480.000      -1.7549944     58.2552683     45.4253473     26.2075345
     490.000      -2.3422521     59.1936326     45.5917929     26.6626278
     500.000      -2.9388147     60.1163108     45.7493432     27.1193407
     510.000      -3.5445276     61.0237542     45.8986027     27.5775871
     520.000      -4.1592405     61.9163989     46.0401270     28.0372869
     530.000      -4.7828076     62.7946663     46.1744276     28.4983655
     540.000      -5.4150872     63.6589634     46.3019754     28.9607530
     550.000      -6.0559416     64.5096829     46.4232047     29.4243840
     560.000      -6.7052369     65.3472040     46.5385165     29.8891974
     570.000      -7.3628429     66.1718925     46.6482811     30.3551358
     580.000      -8.0286332     66.9841014     46.7528411     30.8221456
     590.000      -8.7024845     67.7841709     46.8525136     31.2901764
     600.000      -9.3842772     68.5724297     46.9475926     31.7591806
     610.000     -10.0738948     69.3491944     47.0383505     32.2291138
     620.000     -10.7712238     70.1147707     47.1250406     32.6999340
     630.000     -11.4761539     70.8694535     47.2078980     33.1716018
     640.000     -12.1885775     71.6135273     47.2871415     33.6440800
     650.000     -12.9083900     72.3472666     47.3629747     34.1173333
     660.000     -13.6354893     73.0709364     47.4355873     34.5913287
     670.000     -14.3697760     73.7847924     47.5051565     35.0660349
     680.000     -15.1111532     74.4890816     47.5718473     35.5414223
     690.000     -15.8595265     75.1840425     47.6358141     36.0174628
     700.000     -16.6148038     75.8699053     47.6972011     36.4941299
     710.000     -17.3768951     76.5468925     47.7561433     36.9713987
     720.000     -18.1457127     77.2152192     47.8127671     37.4492451
     730.000     -18.9211713     77.8750930     47.8671910     37.9276467
     740.000     -19.7031871     78.5267149     47.9195259     38.4065819
     750.000     -20.4916787     79.1702790     47.9698763     38.8860306
     760.000     -21.2865664     79.8059732     48.0183399     39.3659732
     770.000     -22.0877725     80.4339791     48.0650087     39.8463914
     780.000     -22.8952210     81.0544726     48.1099694     40.3272677
     790.000     -23.7088375     81.6676239     48.1533034     40.8085853
     800.000     -24.5285495     82.2735976     48.1950874     41.2903286
     810.000     -25.3542861     82.8725534     48.2353936     41.7724822
     820.000     -26.1859777     83.4646457     48.2742902     42.2550317
     830.000     -27.0235566     84.0500242     48.3118416     42.7379635
     840.000     -27.8669563     84.6288341     48.3481085     43.2212643
     850.000     -28.7161119     85.2012158     48.3831483     43.7049216
     860.000     -29.5709597     85.7673058     48.4170151     44.1889233
     870.000     -30.4314375     86.3272363     48.4497604     44.6732581
     880.000     -31.2974843     86.8811355     48.4814326     45.1579150
     890.000     -32.1690405     87.4291279     48.5120778     45.6428834
     900.000     -33.0460476     87.9713342     48.5417395     46.1281533
     910.000     -33.9284483     88.5078717     48.5704589     46.6137150
     920.000     -34.8161865     89.0388542     48.5982754     47.0995594
     930.000     -35.7092072     89.5643923     48.6252260     47.5856776
     940.000     -36.6074565     90.0845933     48.6513460     48.0720612
     950.000     -37.5108816     90.5995616     48.6766690     48.5587019
     960.000     -38.4194307     91.1093986     48.7012268     49.0455920
     970.000     -39.3330528     91.6142029     48.7250498     49.5327240
     980.000     -40.2516983     92.1140703     48.7481667     50.0200906
     990.000     -41.1753181     92.6090941     48.7706050     50.5076851
    1000.000     -42.1038643     93.0993649     48.7923908     50.9955006
